Wavelength Intensity
 475.00000   125088.12500
 476.00000   125218.21875
 477.00000   125321.62500
 478.00000   125408.68750
 479.00000   125489.81250
 480.00000   125575.43750
 481.00000   125675.96875
 482.00000   125801.81250
 483.00000   125963.37500
 484.00000   126171.06250
 485.00000   126435.28125
 486.00000   126766.46875
 487.00000   127175.00000
 488.00000   127671.31250
 489.00000   128265.78125
 490.00000   128968.84375
 491.00000   129790.90625
 492.00000   130712.84375
 493.00000   131708.71875
 494.00000   132778.46875
 495.00000   133922.09375
 496.00000   135139.59375
 497.00000   136431.00000
 498.00000   137796.31250
 499.00000   139235.46875
 500.00000   140748.53125
 501.00000   142335.50000
 502.00000   143996.34375
 503.00000   145731.06250
 504.00000   147539.68750
 505.00000   149422.18750
 506.00000   151378.59375
 507.00000   153408.87500
 508.00000   155513.03125
 509.00000   157691.09375
 510.00000   159943.03125
 511.00000   162268.84375
 512.00000   164668.56250
 513.00000   167142.15625
 514.00000   169689.65625
 515.00000   172311.03125
 516.00000   175006.31250
 517.00000   177775.46875
 518.00000   180618.50000
 519.00000   183535.43750
 520.00000   186526.25000
 521.00000   189590.93750
 522.00000   192729.53125
 523.00000   195942.03125
 524.00000   199228.31250
 525.00000   202588.43750
 526.00000   206022.34375
 527.00000   209530.06250
 528.00000   213111.68750
 529.00000   216767.15625
 530.00000   220496.53125
 531.00000   224299.84375
 532.00000   228177.09375
 533.00000   232128.34375
 534.00000   236153.56250
 535.00000   240252.78125
 536.00000   244426.06250
 537.00000   248673.40625
 538.00000   252994.84375
 539.00000   257390.37500
 540.00000   261860.34375
 541.00000   266405.03125
 542.00000   271024.25000
 543.00000   275717.84375
 544.00000   280485.65625
 545.00000   285327.56250
 546.00000   290243.34375
 547.00000   295232.87500
 548.00000   300295.96875
 549.00000   305432.53125
 550.00000   310642.34375
 551.00000   315925.25000
 552.00000   321281.12500
 553.00000   326709.81250
 554.00000   332211.12500
 555.00000   337784.93750
 556.00000   343427.93750
 557.00000   349137.93750
 558.00000   354916.34375
 559.00000   360764.62500
 560.00000   366684.15625
 561.00000   372676.40625
 562.00000   378742.75000
 563.00000   384884.62500
 564.00000   391103.46875
 565.00000   397400.68750
 566.00000   403777.71875
 567.00000   410235.96875
 568.00000   416776.87500
 569.00000   423401.84375
 570.00000   430112.34375
 571.00000   436909.75000
 572.00000   443786.18750
 573.00000   450734.25000
 574.00000   457756.09375
 575.00000   464853.75000
 576.00000   472029.34375
 577.00000   479285.00000
 578.00000   486622.81250
 579.00000   494044.90625
 580.00000   501553.34375
 581.00000   509150.28125
 582.00000   516837.78125
 583.00000   524617.96875
 584.00000   532492.93750
 585.00000   540464.81250
 586.00000   548535.68750
 587.00000   556707.68750
 588.00000   564975.59375
 589.00000   573333.28125
 590.00000   581781.21875
 591.00000   590319.93750
 592.00000   598949.93750
 593.00000   607671.78125
 594.00000   616485.90625
 595.00000   625392.90625
 596.00000   634393.25000
 597.00000   643487.50000
 598.00000   652676.12500
 599.00000   661959.68750
 600.00000   671338.65625
 601.00000   680813.59375
 602.00000   690384.96875
 603.00000   700053.37500
 604.00000   709814.87500
 605.00000   719666.12500
 606.00000   729608.25000
 607.00000   739642.43750
 608.00000   749769.81250
 609.00000   759991.53125
 610.00000   770308.75000
 611.00000   780722.68750
 612.00000   791234.40625
 613.00000   801845.15625
 614.00000   812556.00000
 615.00000   823368.18750
 616.00000   834282.81250
 617.00000   845301.06250
 618.00000   856424.06250
 619.00000   867653.03125
 620.00000   878980.62500
 621.00000   890400.25000
 622.00000   901913.93750
 623.00000   913523.75000
 624.00000   925231.71875
 625.00000   937039.90625
 626.00000   948950.40625
 627.00000   960965.25000
 628.00000   973086.46875
 629.00000   985316.15625
 630.00000   997656.34375
 631.00000  1010109.09375
 632.00000  1022676.46875
 633.00000  1035360.53125
 634.00000  1048163.31250
 635.00000  1061086.90625
 636.00000  1074121.03125
 637.00000  1087255.87500
 638.00000  1100494.00000
 639.00000  1113838.00000
 640.00000  1127290.43750
 641.00000  1140853.87500
 642.00000  1154530.93750
 643.00000  1168324.15625
 644.00000  1182236.12500
 645.00000  1196269.46875
 646.00000  1210426.68750
 647.00000  1224710.43750
 648.00000  1239123.25000
 649.00000  1253667.71875
 650.00000  1268346.43750
 651.00000  1283161.96875
 652.00000  1298099.84375
 653.00000  1313146.46875
 654.00000  1328305.78125
 655.00000  1343581.62500
 656.00000  1358977.93750
 657.00000  1374498.59375
 658.00000  1390147.46875
 659.00000  1405928.46875
 660.00000  1421845.50000
 661.00000  1437902.43750
 662.00000  1454103.15625
 663.00000  1470451.59375
 664.00000  1486951.62500
 665.00000  1503607.15625
 666.00000  1520422.03125
 667.00000  1537400.21875
 668.00000  1554523.78125
 669.00000  1571775.15625
 670.00000  1589158.65625
 671.00000  1606678.56250
 672.00000  1624339.12500
 673.00000  1642144.68750
 674.00000  1660099.50000
 675.00000  1678207.84375
 676.00000  1696474.03125
 677.00000  1714902.34375
 678.00000  1733497.09375
 679.00000  1752262.50000
 680.00000  1771202.93750
 681.00000  1790322.65625
 682.00000  1809625.90625
 683.00000  1829117.06250
 684.00000  1848767.68750
 685.00000  1868552.12500
 686.00000  1888478.53125
 687.00000  1908555.12500
 688.00000  1928790.03125
 689.00000  1949191.50000
 690.00000  1969767.71875
 691.00000  1990526.84375
 692.00000  2011477.06250
 693.00000  2032626.62500
 694.00000  2053983.65625
 695.00000  2075556.37500
 696.00000  2097352.93750
 697.00000  2119381.59375
 698.00000  2141650.50000
 699.00000  2164167.84375
 700.00000  2186919.15625
 701.00000  2209884.43750
 702.00000  2233063.40625
 703.00000  2256455.87500
 704.00000  2280061.59375
 705.00000  2303880.34375
 706.00000  2327911.87500
 707.00000  2352156.00000
 708.00000  2376612.46875
 709.00000  2401281.06250
 710.00000  2426161.53125
 711.00000  2451253.65625
 712.00000  2476557.25000
 713.00000  2502072.03125
 714.00000  2527797.78125
 715.00000  2553734.31250
 716.00000  2579905.87500
 717.00000  2606330.62500
 718.00000  2632998.96875
 719.00000  2659901.37500
 720.00000  2687028.25000
 721.00000  2714370.03125
 722.00000  2741917.21875
 723.00000  2769660.18750
 724.00000  2797589.40625
 725.00000  2825695.31250
 726.00000  2853968.34375
 727.00000  2882398.96875
 728.00000  2910977.59375
 729.00000  2939694.65625
 730.00000  2968540.62500
 731.00000  2997505.93750
 732.00000  3026593.75000
 733.00000  3055817.46875
 734.00000  3085182.84375
 735.00000  3114695.59375
 736.00000  3144361.46875
 737.00000  3174186.15625
 738.00000  3204175.43750
 739.00000  3234335.03125
 740.00000  3264670.68750
 741.00000  3295188.12500
 742.00000  3325893.06250
 743.00000  3356791.28125
 744.00000  3387888.46875
 745.00000  3419190.37500
 746.00000  3450702.75000
 747.00000  3482431.31250
 748.00000  3514397.00000
 749.00000  3546608.59375
 750.00000  3579053.50000
 751.00000  3611719.12500
 752.00000  3644592.87500
 753.00000  3677662.15625
 754.00000  3710914.37500
 755.00000  3744336.96875
 756.00000  3777917.34375
 757.00000  3811642.87500
 758.00000  3845501.03125
 759.00000  3879479.18750
 760.00000  3913564.75000
 761.00000  3947745.12500
 762.00000  3982007.75000
 763.00000  4016340.06250
 764.00000  4050733.53125
 765.00000  4085196.59375
 766.00000  4119741.78125
 767.00000  4154381.78125
 768.00000  4189129.15625
 769.00000  4223996.53125
 770.00000  4258996.53125
 771.00000  4294141.71875
 772.00000  4329444.75000
 773.00000  4364918.25000
 774.00000  4400574.75000
 775.00000  4436426.93750
 776.00000  4472487.40625
 777.00000  4508768.75000
 778.00000  4545283.59375
 779.00000  4582044.53125
 780.00000  4619015.34375
 781.00000  4656155.00000
 782.00000  4693468.65625
 783.00000  4730961.56250
 784.00000  4768638.93750
 785.00000  4806506.03125
 786.00000  4844568.09375
 787.00000  4882830.31250
 788.00000  4921297.93750
 789.00000  4959976.21875
 790.00000  4998870.34375
 791.00000  5037985.59375
 792.00000  5077327.15625
 793.00000  5116900.28125
 794.00000  5156710.18750
 795.00000  5196762.15625
 796.00000  5236983.43750
 797.00000  5277314.81250
 798.00000  5317781.43750
 799.00000  5358408.56250
 800.00000  5399221.43750
 801.00000  5440245.21875
 802.00000  5481505.18750
 803.00000  5523026.56250
 804.00000  5564834.56250
 805.00000  5606954.37500
 806.00000  5649411.28125
 807.00000  5692230.50000
 808.00000  5735437.21875
 809.00000  5779056.68750
 810.00000  5823114.09375
 811.00000  5867634.75000
 812.00000  5912556.21875
 813.00000  5957803.71875
 814.00000  6003383.68750
 815.00000  6049302.50000
 816.00000  6095566.65625
 817.00000  6142182.53125
 818.00000  6189156.56250
 819.00000  6236495.25000
 820.00000  6284204.93750
 821.00000  6332292.12500
 822.00000  6380763.21875
 823.00000  6429624.62500
 824.00000  6478882.84375
 825.00000  6528544.21875
 826.00000  6578615.28125
 827.00000  6629102.40625
 828.00000  6679943.59375
 829.00000  6731086.00000
 830.00000  6782549.68750
 831.00000  6834354.71875
 832.00000  6886521.18750
 833.00000  6939069.15625
 834.00000  6992018.71875
 835.00000  7045389.93750
 836.00000  7099202.87500
 837.00000  7153477.59375
 838.00000  7208234.21875
 839.00000  7263492.81250
 840.00000  7319273.40625
 841.00000  7375596.12500
 842.00000  7432481.03125
 843.00000  7489948.18750
 844.00000  7547970.21875
 845.00000  7606503.93750
 846.00000  7665545.53125
 847.00000  7725091.21875
 848.00000  7785137.21875
 849.00000  7845679.75000
 850.00000  7906715.00000
 851.00000  7968239.21875
 852.00000  8030248.62500
 853.00000  8092739.40625
 854.00000  8155707.78125
 855.00000  8219150.00000
 856.00000  8283062.28125
 857.00000  8347440.81250
 858.00000  8412281.78125
 859.00000  8477581.50000
 860.00000  8543346.65625
 861.00000  8609586.68750
 862.00000  8676301.59375
 863.00000  8743491.43750
 864.00000  8811156.31250
 865.00000  8879296.25000
 866.00000  8947911.31250
 867.00000  9017001.56250
 868.00000  9086567.06250
 869.00000  9156607.84375
 870.00000  9227123.96875
 871.00000  9298115.53125
 872.00000  9369582.53125
 873.00000  9441525.09375
 874.00000  9513943.21875
 875.00000  9586837.00000
 876.00000  9660159.62500
 877.00000  9733876.75000
 878.00000  9808007.03125
 879.00000  9882569.15625
 880.00000  9957581.78125
 881.00000 10033063.56250
 882.00000 10109033.18750
 883.00000 10185509.34375
 884.00000 10262510.65625
 885.00000 10340055.81250
 886.00000 10418163.50000
 887.00000 10496852.34375
 888.00000 10576141.06250
 889.00000 10656048.31250
 890.00000 10736592.71875
 891.00000 10817793.03125
 892.00000 10899628.93750
 893.00000 10982064.12500
 894.00000 11065092.96875
 895.00000 11148709.81250
 896.00000 11232909.12500
 897.00000 11317685.25000
 898.00000 11403032.62500
 899.00000 11488945.59375
 900.00000 11575418.56250
 901.00000 11662445.96875
 902.00000 11750022.18750
 903.00000 11838141.59375
 904.00000 11926798.59375
 905.00000 12015987.59375
 906.00000 12105703.00000
 907.00000 12195939.18750
 908.00000 12286477.65625
 909.00000 12377164.75000
 910.00000 12468091.93750
 911.00000 12559350.71875
 912.00000 12651032.56250
 913.00000 12743229.00000
 914.00000 12836031.46875
 915.00000 12929531.53125
 916.00000 13023820.62500
 917.00000 13118990.28125
 918.00000 13215131.96875
 919.00000 13312337.18750
 920.00000 13410697.46875
 921.00000 13510304.21875
 922.00000 13611249.03125
 923.00000 13713623.34375
 924.00000 13817553.15625
 925.00000 13923025.18750
 926.00000 14029921.93750
 927.00000 14138125.90625
 928.00000 14247519.56250
 929.00000 14357985.43750
 930.00000 14469406.00000
 931.00000 14581663.78125
 932.00000 14694641.25000
 933.00000 14808220.90625
 934.00000 14922285.28125
 935.00000 15036716.84375
 936.00000 15151398.09375
 937.00000 15266211.53125
 938.00000 15381039.65625
 939.00000 15495765.00000
 940.00000 15610605.46875
 941.00000 15725856.81250
 942.00000 15841517.90625
 943.00000 15957587.78125
 944.00000 16074065.40625
 945.00000 16190949.71875
 946.00000 16308239.71875
 947.00000 16425934.34375
 948.00000 16544032.59375
 949.00000 16662533.43750
 950.00000 16781435.84375
 951.00000 16900738.78125
 952.00000 17020441.18750
 953.00000 17140542.09375
 954.00000 17261040.43750
 955.00000 17381935.18750
 956.00000 17503378.59375
 957.00000 17625483.46875
 958.00000 17748189.75000
 959.00000 17871437.21875
 960.00000 17995165.71875
 961.00000 18119315.18750
 962.00000 18243825.40625
 963.00000 18368636.25000
 964.00000 18493687.59375
 965.00000 18618919.28125
 966.00000 18744271.18750
 967.00000 18869683.12500
 968.00000 18995094.96875
 969.00000 19120446.56250
 970.00000 19245677.81250
 971.00000 19370728.53125
 972.00000 19495769.43750
 973.00000 19620995.28125
 974.00000 19746381.87500
 975.00000 19871905.00000
 976.00000 19997540.46875
 977.00000 20123264.12500
 978.00000 20249051.75000
 979.00000 20374879.15625
 980.00000 20500722.15625
 981.00000 20626556.56250
 982.00000 20752358.21875
 983.00000 20878102.87500
 984.00000 21003766.37500
 985.00000 21129324.53125
 986.00000 21254753.12500
 987.00000 21380028.03125
 988.00000 21505170.59375
 989.00000 21630224.53125
 990.00000 21755198.96875
 991.00000 21880103.12500
 992.00000 22004946.12500
 993.00000 22129737.18750
 994.00000 22254485.43750
 995.00000 22379200.06250
 996.00000 22503890.25000
 997.00000 22628565.15625
 998.00000 22753233.93750
 999.00000 22877905.75000
1000.00000 23002589.81250
1001.00000 23127295.28125
1002.00000 23252031.31250
1003.00000 23376807.09375
1004.00000 23501605.78125
1005.00000 23626404.46875
1006.00000 23751203.15625
1007.00000 23876001.84375
1008.00000 24000800.53125
1009.00000 24125599.21875
1010.00000 24250397.90625
1011.00000 24375196.62500
1012.00000 24499995.31250
1013.00000 24624794.00000
1014.00000 24749592.68750
1015.00000 24874391.37500
1016.00000 24999190.06250
1017.00000 25123988.75000
1018.00000 25248787.43750
1019.00000 25373586.15625
1020.00000 25498384.84375
1021.00000 25623183.53125
1022.00000 25747982.21875
1023.00000 25872780.90625
1024.00000 25997579.59375
1025.00000 26122378.28125
1026.00000 26247176.96875
1027.00000 26371975.68750
1028.00000 26496774.37500
1029.00000 26621573.06250
1030.00000 26746371.75000
1031.00000 26871170.43750
1032.00000 26995969.12500
1033.00000 27120767.81250
1034.00000 27245566.50000
1035.00000 27370365.21875
1036.00000 27495163.90625
1037.00000 27619962.59375
1038.00000 27744761.28125
1039.00000 27869559.96875
1040.00000 27994358.65625
1041.00000 28119157.34375
1042.00000 28243956.03125
1043.00000 28368754.75000
1044.00000 28493553.43750
1045.00000 28618352.12500
1046.00000 28743150.81250
1047.00000 28867949.50000
1048.00000 28992748.18750
1049.00000 29117546.87500
1050.00000 29242345.56250
1051.00000 29367144.28125
1052.00000 29491942.96875
1053.00000 29616741.65625
1054.00000 29741540.34375
1055.00000 29866339.03125
1056.00000 29991137.71875
1057.00000 30115936.40625
1058.00000 30240735.09375
1059.00000 30365533.81250
1060.00000 30490332.50000
1061.00000 30615131.18750
1062.00000 30739929.87500
1063.00000 30864728.56250
1064.00000 30989527.25000
1065.00000 31114325.93750
1066.00000 31239124.62500
1067.00000 31363923.34375
1068.00000 31488722.03125
1069.00000 31613520.71875
1070.00000 31738319.40625
1071.00000 31863118.09375
1072.00000 31987916.78125
1073.00000 32112715.46875
1074.00000 32237514.15625
1075.00000 32362312.87500
1076.00000 32487111.56250
1077.00000 32611910.25000
1078.00000 32736708.93750
1079.00000 32861507.62500
1080.00000 32986306.31250
1081.00000 33111105.00000
1082.00000 33235903.68750
1083.00000 33360702.40625
1084.00000 33485501.09375
1085.00000 33610299.78125
1086.00000 33735098.46875
1087.00000 33859897.15625
1088.00000 33984695.84375
1089.00000 34109494.53125
1090.00000 34234293.21875
1091.00000 34359091.93750
1092.00000 34483890.62500
1093.00000 34608689.31250
1094.00000 34733488.00000
1095.00000 34858286.68750
1096.00000 34983085.37500
1097.00000 35107884.06250
1098.00000 35232682.75000
1099.00000 35357481.46875
1100.00000 35485936.34375
1101.00000 35620728.68750
1102.00000 35760395.96875
1103.00000 35903475.71875
1104.00000 36048505.46875
1105.00000 36194022.68750
1106.00000 36338564.90625
1107.00000 36480669.68750
1108.00000 36618874.46875
1109.00000 36751716.84375
1110.00000 36877734.25000
1111.00000 36995464.28125
1112.00000 37103444.40625
1113.00000 37200212.12500
1114.00000 37284305.00000
1115.00000 37354260.53125
